Folder: filtrar_datos_erdem

Note: README
#filtar datos

1. via terminal, with "./extract.sh [filename.mpt]"
2. via web,  with "index.html"

File: a.mpt
EC-Lab ASCII FILE
Nb header lines : 50

Open Circuit Voltage

Run on channel : 3 (SN 4895)
User :
Electrode connection : standard
Ewe ctrl range : min = -10.00 V, max = 10.00 V
Ewe,I filtering : 50 kHz
Safety Limits :
	Do not start on E overload
Channel : Grounded
Acquisition started on : 06/04/2018 12:45:52
Technique started on : 06/04/2018 12:45:52
Saved on :
	File : GF201805_21_01_OCV.mpr
	Directory : C:\Users\L004\Documents\EC-Lab\Data\2018\06 June\04June_Erdem_NO3R\
	Host : 192.109.209.127
Device : VMP-300 (SN 0241)
Address : 192.109.209.128
EC-Lab for windows v11.12 (software)
Internet server v11.12 (firmware)
Command interpretor v11.12 (firmware)
Electrode material : 201805_21
Initial state : 500rpm stirring - N2 blanket
Electrolyte : 30mM NaClO4 100ppm NaNO3
Comments : Vacuum in 90mL
Comments : 1 g/L GO 70% 130ºC 8h
Current amplifier : B-2A30V
Cable : special
Reference electrode : Ag/AgCl Ref #7 (0.208 V)
Electrode surface area : 2.000 cm²
Characteristic mass : 1.000 g
Equivalent Weight : 0.000 g/eq.
Density : 0.000 g/cm3
Record Ece
Text export
Cycle Definition : Charge/Discharge alternance
tR (h:m:s)          0:00:10.0000
dER/dt (mV/h)       0.0
dER (mV)            0.00
dtR (s)             0.5000
E range min (V)     -10.000
E range max (V)     10.000

Number of loops : 1
Loop 0 from point number 0 to 20

mode	error	time/s	Ewe/V	Ece/V	Rcmp/Ohm	Ewe-Ece/V
3	1	0.000000000000000E+000	0.174253	0.656478	0.0000000E+000	-0.482225
3	0	0.5	0.174307	0.656375	0.0000000E+000	-0.482069
3	0	1	0.174196	0.65641	0.0000000E+000	-0.482214
3	0	1.5	0.174276	0.656169	0.0000000E+000	-0.481893
3	0	2	0.17428	0.656272	0.0000000E+000	-0.481992
3	0	2.5	0.174127	0.656272	0.0000000E+000	-0.482145
3	0	3	0.174192	0.656272	0.0000000E+000	-0.48208
3	0	3.5	0.1742	0.65641	0.0000000E+000	-0.48221
3	0	4	0.174203	0.656203	0.0000000E+000	-0.482
3	0	4.5	0.174192	0.656478	0.0000000E+000	-0.482286
3	0	5	0.174116	0.656238	0.0000000E+000	-0.482122
3	0	5.5	0.174215	0.65641	0.0000000E+000	-0.482195
3	0	6	0.174299	0.656581	0.0000000E+000	-0.482282
3	0	6.5	0.174261	0.656581	0.0000000E+000	-0.482321
3	0	7	0.174421	0.656616	0.0000000E+000	-0.482195
3	0	7.5	0.174345	0.656581	0.0000000E+000	-0.482237
3	0	8	0.174196	0.656375	0.0000000E+000	-0.482179
3	0	8.5	0.174184	0.65641	0.0000000E+000	-0.482225
3	0	9	0.174318	0.656753	0.0000000E+000	-0.482435
3	0	9.5	0.174276	0.656685	0.0000000E+000	-0.482408
3	0	9.9998	0.174268	0.6561	0.0000000E+000	-0.481832

File: c.mpt
EC-Lab ASCII FILE
Nb header lines : 65

Cyclic Voltammetry

Run on channel : 3 (SN 4895)
User :
Electrode connection : standard
Ewe ctrl range : min = -10.00 V, max = 10.00 V
Ewe,I filtering : 50 kHz
Safety Limits :
	Do not start on E overload
Channel : Grounded
Acquisition started on : 06/04/2018 12:45:52
Technique started on : 06/04/2018 12:46:03
Saved on :
	File : GF201805_21_03_CV.mpr
	Directory : C:\Users\L004\Documents\EC-Lab\Data\2018\06 June\04June_Erdem_NO3R\
	Host : 192.109.209.127
Device : VMP-300 (SN 0241)
Address : 192.109.209.128
EC-Lab for windows v11.12 (software)
Internet server v11.12 (firmware)
Command interpretor v11.12 (firmware)
Electrode material : 201805_21
Initial state : 500rpm stirring - N2 blanket
Electrolyte : 30mM NaClO4 100ppm NaNO3
Comments : Vacuum in 90mL
Comments : 1 g/L GO 70% 130ºC 8h
Current amplifier : B-2A30V
Cable : special
Reference electrode : Ag/AgCl Ref #7 (0.208 V)
Electrode surface area : 2.000 cm²
Characteristic mass : 1.000 g
Equivalent Weight : 0.000 g/eq.
Density : 0.000 g/cm3
Record Ece
Text export
Cycle Definition : Charge/Discharge alternance
Ei (V)              0.000
vs.                 Eoc
dE/dt               50.000
dE/dt unit          mV/s
E1 (V)              -1.800
vs.                 Ref
Step percent        50
N                   10
E range min (V)     -10.000
E range max (V)     10.000
I Range             100 mA
I Range min         10 nA
I Range max         10 mA
I Range init        100 nA
Bandwidth           5
E2 (V)              1.500
vs.                 Ref
nc cycles           0
Reverse Scan        1
Ef (V)              0.000
vs.                 Eoc

Number of loops : 1
Loop 0 from point number 0 to 1984

mode	ox/red	error	control changes	counter inc.	time/s	control/V	Ewe/V	<I>/mA	cycle number	(Q-Qo)/C	<Ece>/V	Rcmp/Ohm	P/W	Ewe-Ece/V
2	0	0	0	0	11.5114	0.174227	0.174417	0.00333789	1	0.0000000E+000	0.654848	0.0000000E+000	5.82185e-07	-0.48043
2	0	0	1	0	12.8148	0.109056	0.109212	-0.464367	1	-0.000454201	1.59732	0.0000000E+000	-5.07146e-05	-1.48811
2	0	0	0	0	14.1482	0.0423852	0.0425404	-0.579638	1	-0.00115725	1.88255	0.0000000E+000	-2.4658e-05	-1.84001
2	0	0	1	0	15.4816	-0.0242859	-0.0241951	-0.656127	1	-0.00198267	2.09643	0.0000000E+000	1.5875e-05	-2.12062
2	0	0	0	0	16.815	-0.0909536	-0.0908766	-0.69342	1	-0.00288507	2.24032	0.0000000E+000	6.30157e-05	-2.33119
2	0	0	1	0	18.1484	-0.157625	-0.157544	-0.740136	1	-0.00384242	2.38242	0.0000000E+000	0.000116604	-2.53997
2	0	0	0	0	19.4818	-0.224296	-0.224219	-0.802087	1	-0.00486786	2.52214	0.0000000E+000	0.000179844	-2.74636
2	0	0	0	0	20.8154	-0.290973	-0.290864	-0.968517	1	-0.00603611	2.81215	0.0000000E+000	0.000281707	-3.10302
2	0	0	1	0	22.1488	-0.357645	-0.357498	-1.39595	1	-0.00757944	3.50525	0.0000000E+000	0.00049905	-3.86274
2	0	0	0	0	23.4822	-0.424316	-0.424139	-2.17848	1	-0.00993059	4.74333	0.0000000E+000	0.000923976	-5.16747
2	0	0	1	0	24.8156	-0.490983	-0.490808	-3.09833	1	-0.0134471	6.18846	0.0000000E+000	0.00152068	-6.67927
2	0	0	0	0	26.149	-0.557654	-0.557518	-3.99473	1	-0.0181849	7.60633	0.0000000E+000	0.00222713	-8.16385
2	0	0	1	0	27.4824	-0.624326	-0.624137	-4.74671	1	-0.0240301	8.81855	0.0000000E+000	0.0029626	-9.44268
2	0	0	0	0	28.8158	-0.690994	-0.690794	-5.41771	1	-0.0308277	9.9315	0.0000000E+000	0.00374252	-10.6223
2	0	0	1	0	30.1492	-0.757664	-0.75752	-5.98447	1	-0.0384497	10.9071	0.0000000E+000	0.00453336	-11.6646
2	0	0	0	0	31.4826	-0.824335	-0.824187	-6.44952	1	-0.046747	11.735	0.0000000E+000	0.00531561	-12.5592
2	0	0	1	0	32.816	-0.891006	-0.890882	-6.81826	1	-0.0556134	12.3984	0.0000000E+000	0.00607426	-13.2892
2	0	0	1	0	34.1496	-0.957684	-0.957591	-7.18817	1	-0.0649506	13.0346	0.0000000E+000	0.00688333	-13.9922
2	0	0	0	0	35.483	-1.02436	-1.02425	-7.38577	1	-0.0746635	13.3317	0.0000000E+000	0.00756487	-14.356
2	0	0	1	0	36.8164	-1.09103	-1.09097	-7.5981	1	-0.0846709	13.5738	0.0000000E+000	0.00828927	-14.6648
2	0	0	0	0	38.1498	-1.15769	-1.15764	-7.69721	1	-0.0948691	13.5646	0.0000000E+000	0.00891057	-14.7222
2	0	0	1	0	39.4832	-1.22437	-1.22428	-7.83668	1	-0.105223	13.5833	0.0000000E+000	0.00959427	-14.8076
2	0	0	0	0	40.8166	-1.29104	-1.29095	-7.93542	1	-0.115713	13.5379	0.0000000E+000	0.0102442	-14.8288
2	0	0	1	0	42.15	-1.3577	-1.35763	-8.14632	1	-0.126427	13.6732	0.0000000E+000	0.0110597	-15.0308
2	0	0	0	0	43.4834	-1.42437	-1.4242	-8.51978	1	-0.137526	14.0498	0.0000000E+000	0.0121338	-15.474
2	0	0	1	0	44.8168	-1.49105	-1.49082	-9.16453	1	-0.149309	14.8172	0.0000000E+000	0.0136627	-16.308
2	0	0	1	0	46.1504	-1.55772	-1.55746	-10.0358	1	-0.162066	15.8954	0.0000000E+000	0.0156303	-17.4529
2	0	0	0	0	47.4838	-1.62439	-1.62404	-11.2361	1	-0.176214	17.4226	0.0000000E+000	0.0182479	-19.0467
2	0	0	1	0	48.8172	-1.69107	-1.69065	-12.8339	1	-0.192182	19.4611	0.0000000E+000	0.0216977	-21.1518
2	0	0	0	0	50.1506	-1.75773	-1.75734	-14.6552	1	-0.210441	21.7737	0.0000000E+000	0.0257541	-23.5311
2	1	0	1	0	51.3644	-1.7814	-1.78158	-15.2929	1	-0.22919	22.4534	0.0000000E+000	0.0272455	-24.235
2	1	0	0	0	52.6978	-1.71473	-1.71478	-12.9742	1	-0.247966	19.2158	0.0000000E+000	0.0222479	-20.9306
2	1	0	1	0	54.0312	-1.64806	-1.64803	-10.9919	1	-0.263916	16.5112	0.0000000E+000	0.0181149	-18.1592
2	1	0	0	0	55.3646	-1.58139	-1.58134	-9.32151	1	-0.27743	14.2591	0.0000000E+000	0.0147405	-15.8405
2	1	0	1	0	56.698	-1.51472	-1.51468	-7.81474	1	-0.288817	12.2288	0.0000000E+000	0.0118369	-13.7434
2	1	0	0	0	58.0314	-1.44805	-1.44798	-6.51437	1	-0.298338	10.4675	0.0000000E+000	0.00943268	-11.9155
2	1	0	1	0	59.3648	-1.38138	-1.38136	-5.45192	1	-0.30629	9.02876	0.0000000E+000	0.00753108	-10.4101
2	1	0	0	0	60.6982	-1.31471	-1.31464	-4.56715	1	-0.312954	7.82001	0.0000000E+000	0.00600418	-9.13466
2	1	0	0	0	62.0318	-1.24803	-1.24795	-3.84201	1	-0.318547	6.8288	0.0000000E+000	0.00479464	-8.07675
2	1	0	1	0	63.3652	-1.18136	-1.18129	-3.22488	1	-0.323244	5.97798	0.0000000E+000	0.00380952	-7.15928
2	1	0	0	0	64.6986	-1.11469	-1.11457	-2.71401	1	-0.327179	5.27192	0.0000000E+000	0.00302497	-6.38649
2	1	0	1	0	66.032	-1.04802	-1.04794	-2.291	1	-0.330506	4.68366	0.0000000E+000	0.00240083	-5.7316
2	1	0	0	0	67.3654	-0.981349	-0.981201	-1.90595	1	-0.333301	4.14425	0.0000000E+000	0.00187012	-5.12545
2	1	0	1	0	68.6988	-0.914678	-0.914529	-1.54325	1	-0.335604	3.63101	0.0000000E+000	0.00141135	-4.54554
2	1	0	0	0	70.0322	-0.848007	-0.847833	-1.24438	1	-0.337456	3.20292	0.0000000E+000	0.00105503	-4.05076
2	1	0	1	0	71.3656	-0.781339	-0.78115	-0.991184	1	-0.338944	2.83618	0.0000000E+000	0.000774264	-3.61733
2	1	0	0	0	72.699	-0.714668	-0.714463	-0.746102	1	-0.340099	2.47354	0.0000000E+000	0.000533062	-3.188
2	1	0	1	0	74.0324	-0.647997	-0.647819	-0.490729	1	-0.340923	2.08333	0.0000000E+000	0.000317904	-2.73115
2	1	0	1	0	75.366	-0.581319	-0.581139	-0.25184	1	-0.341414	1.70011	0.0000000E+000	0.000146354	-2.28125
2	1	0	0	0	76.6994	-0.514648	-0.514503	-0.0113362	1	-0.341591	1.27586	0.0000000E+000	5.83249e-06	-1.79036
2	1	0	1	0	78.0328	-0.447977	-0.447801	0.258493	1	-0.341423	0.685384	0.0000000E+000	-0.000115753	-1.13318
2	1	0	0	0	79.3662	-0.381309	-0.381187	0.522348	1	-0.340901	-0.0556313	0.0000000E+000	-0.000199112	-0.325555
2	1	0	1	0	80.6996	-0.314638	-0.314411	0.765138	1	-0.340033	-0.630668	0.0000000E+000	-0.000240568	0.316257
2	1	0	0	0	82.033	-0.247967	-0.247698	0.937636	1	-0.338882	-0.957303	0.0000000E+000	-0.00023225	0.709606
[...]
2	1	0	1	0	98.034	0.552082	0.552377	2.31537	1	-0.318512	-3.70534	0.0000000E+000	0.00127896	4.25772
2	1	0	0	0	99.3674	0.618753	0.619032	2.69283	1	-0.315173	-4.62813	0.0000000E+000	0.00166695	5.24716
2	1	0	0	0	100.701	0.685431	0.685702	3.10004	1	-0.311316	-5.68131	0.0000000E+000	0.0021257	6.36701
2	1	0	1	0	102.034	0.752102	0.752371	3.49224	1	-0.306911	-6.6934	0.0000000E+000	0.00262746	7.44577
2	1	0	0	0	103.368	0.818773	0.819045	3.8886	1	-0.30198	-7.73438	0.0000000E+000	0.00318494	8.55342
2	1	0	1	0	104.701	0.88544	0.885618	4.32206	1	-0.296507	-8.94853	0.0000000E+000	0.0038277	9.83414
2	1	0	0	0	106.035	0.952111	0.952291	4.80077	1	-0.290436	-10.3688	0.0000000E+000	0.00457173	11.3211
2	1	0	1	0	107.368	1.01878	1.01894	5.40744	1	-0.283644	-12.1726	0.0000000E+000	0.00550986	13.1915
2	1	0	0	0	108.701	1.08545	1.08563	6.23893	1	-0.275914	-14.6462	0.0000000E+000	0.00677318	15.7318
2	1	0	1	0	110.035	1.15212	1.15235	7.32066	1	-0.266881	-17.5271	0.0000000E+000	0.00843593	18.6794
2	1	0	0	0	111.368	1.21879	1.21893	8.40691	1	-0.256385	-20.2135	0.0000000E+000	0.0102474	21.4324
2	1	0	0	0	112.702	1.28547	1.28559	9.39383	1	-0.244491	-22.5661	0.0000000E+000	0.0120766	23.8517
2	1	0	1	0	114.035	1.35214	1.35231	10.28	1	-0.231381	-24.6113	0.0000000E+000	0.0139018	25.9636
2	1	0	0	0	115.369	1.41881	1.41884	11.211	1	-0.217084	-26.6904	0.0000000E+000	0.0159066	28.1092
2	1	0	1	0	116.702	1.48548	1.48564	12.2233	1	-0.201467	-28.9014	0.0000000E+000	0.0181594	30.3871
2	0	0	0	1	117.963	1.45147	1.45228	9.98217	1	-0.187026	-23.7379	0.0000000E+000	0.0144969	25.1902
2	0	0	1	1	119.296	1.38481	1.38557	7.40588	1	-0.175504	-17.8946	0.0000000E+000	0.0102614	19.2802
2	0	0	0	1	120.629	1.31814	1.31883	5.35918	1	-0.167063	-13.2285	0.0000000E+000	0.00706787	14.5473
2	0	0	1	1	121.963	1.25146	1.25211	3.76567	1	-0.161056	-9.53997	0.0000000E+000	0.00471505	10.7921
2	0	0	0	1	123.296	1.18479	1.18531	2.49539	1	-0.156942	-6.52234	0.0000000E+000	0.00295782	7.70765
2	0	0	1	1	124.63	1.11813	1.11854	1.56669	1	-0.154271	-4.22778	0.0000000E+000	0.00175241	5.34632
2	0	0	0	1	125.963	1.05145	1.05182	0.869043	1	-0.152675	-2.48204	0.0000000E+000	0.000914075	3.53386
2	0	0	1	1	127.296	0.984784	0.98513	0.330641	1	-0.151897	-1.17273	0.0000000E+000	0.000325724	2.15786
2	0	0	1	1	128.63	0.918106	0.918453	-0.0778263	1	-0.151741	-0.187925	0.0000000E+000	-7.14798e-05	1.10638
2	0	0	0	1	129.963	0.851435	0.85173	-0.387022	1	-0.152066	0.566223	0.0000000E+000	-0.000329639	0.285508
2	0	0	1	1	131.297	0.784764	0.785035	-0.584986	1	-0.152731	1.06932	0.0000000E+000	-0.000459234	-0.284287
2	0	0	0	1	132.63	0.718096	0.718314	-0.680313	1	-0.153585	1.33041	0.0000000E+000	-0.000488678	-0.612093
2	0	0	1	1	133.964	0.651425	0.651626	-0.731196	1	-0.154531	1.48683	0.0000000E+000	-0.000476466	-0.835206
2	0	0	0	1	135.297	0.584754	0.584949	-0.758213	1	-0.155526	1.59042	0.0000000E+000	-0.000443516	-1.00547
2	0	0	1	1	136.63	0.518086	0.51829	-0.770819	1	-0.156546	1.66681	0.0000000E+000	-0.000399508	-1.14852
2	0	0	0	1	137.964	0.451415	0.451549	-0.787408	1	-0.157588	1.76632	0.0000000E+000	-0.000355553	-1.31477
2	0	0	1	1	139.297	0.384744	0.384914	-0.821036	1	-0.158661	1.95186	0.0000000E+000	-0.000316028	-1.56695
2	0	0	1	1	140.631	0.318067	0.318206	-0.875821	1	-0.159793	2.41097	0.0000000E+000	-0.000278691	-2.09277
2	0	0	0	1	141.964	0.251396	0.251495	-0.935357	1	-0.161001	2.73567	0.0000000E+000	-0.000235238	-2.48418
2	0	0	1	1	143.298	0.184724	0.184806	-1.00594	1	-0.162295	3.0116	0.0000000E+000	-0.000185905	-2.8268
2	0	0	1	1	143.502	0.174227	0.174517	-1.01833	1	-0.162502	3.05453	0.0000000E+000	-0.000177715	-2.88001

File: d.mpt
EC-Lab ASCII FILE
Nb header lines : 65

IR compensation (PEIS)

Run on channel : 3 (SN 4895)
User :
Electrode connection : standard
Ewe ctrl range : min = -10.00 V, max = 10.00 V
Ewe,I filtering : 50 kHz
Safety Limits :
	Do not start on E overload
Channel : Grounded
Acquisition started on : 06/04/2018 12:45:52
Technique started on : 06/04/2018 12:48:16
Saved on :
	File : GF201805_21_04_ZIR.mpr
	Directory : C:\Users\L004\Documents\EC-Lab\Data\2018\06 June\04June_Erdem_NO3R\
	Host : 192.109.209.127
Device : VMP-300 (SN 0241)
Address : 192.109.209.128
EC-Lab for windows v11.12 (software)
Internet server v11.12 (firmware)
Command interpretor v11.12 (firmware)
Electrode material : 201805_21
Initial state : 500rpm stirring - N2 blanket
Electrolyte : 30mM NaClO4 100ppm NaNO3
Comments : Vacuum in 90mL
Comments : 1 g/L GO 70% 130ºC 8h
Current amplifier : B-2A30V
Cable : special
Reference electrode : Ag/AgCl Ref #7 (0.208 V)
Electrode surface area : 2.000 cm²
Characteristic mass : 1.000 g
Equivalent Weight : 0.000 g/eq.
Density : 0.000 g/cm3
Record Ece
Text export
Cycle Definition : Charge/Discharge alternance
E (V)               0.0000
vs.                 Eoc
f                   10.000
unit f              kHz
Va (mV)             20.0
pw                  0.10
Na                  4
E range min (V)     -10.000
E range max (V)     10.000
I Range             100 mA
Bandwidth           5
comp. level (%)     50
use results         0
comp. mode          Software

Number of loops : 8
Loop 0 from point number 0 to 0
Loop 1 from point number 1 to 1
Loop 2 from point number 2 to 2
Loop 3 from point number 3 to 3
Loop 4 from point number 4 to 4
Loop 5 from point number 5 to 5
Loop 6 from point number 6 to 6
Loop 7 from point number 7 to 7

freq/Hz	Re(Z)/Ohm	-Im(Z)/Ohm	|Z|/Ohm	Phase(Z)/deg	time/s	<Ewe>/V	<I>/mA	I Range	|Ewe|/V	|I|/A	<Ece>/V	|Ece|/V	Phase(Zce)/deg	|Zce|/Ohm	Re(Zce)/Ohm	-Im(Zce)/Ohm	Phase(Zwe-ce)/deg	|Zwe-ce|/Ohm	Re(Zwe-ce)/Ohm	-Im(Zwe-ce)/Ohm	Re(Y)/Ohm-1	Im(Y)/Ohm-1	|Y|/Ohm-1	Phase(Y)/deg
10019.5	13.3222	-9.21902	16.2009	34.6835	144.863	0.174189	-0.3004	38	0.0196547	0.00121318	1.29904	2.77593	-0.548051	2288.14	2288.03	21.8863	-0.31537	2301.39	2301.35	12.6673	0.0507568	-0.035124	0.0617248	-34.6835
10019.5	11.3729	-4.01035	12.0592	19.4239	1946.43	0.175596	0	38	0.0193511	0.00160467	0	1.72002	-0.259136	1071.88	1071.87	4.84786	-0.0442982	1083.24	1083.24	0.837508
10019.5	11.1346	-3.41808	11.6475	17.0653	3748.02	0.175089	0	38	0.018163	0.0015594	0	1.39188	-0.289904	892.576	892.565	4.51622	-0.0696234	903.7	903.699	1.09814
10019.5	10.8066	-3.16067	11.2593	16.303	5549.61	0.17503	0	38	0.0180286	0.00160122	0	1.29564	-0.303246	809.16	809.148	4.28258	-0.0783948	819.956	819.955	1.1219
10019.5	10.729	-3.45987	11.2731	17.8734	7351.18	0.174985	0	38	0.0189859	0.00168418	0	1.37439	-0.314782	816.06	816.047	4.4834	-0.0709307	826.777	826.776	1.02353
10019.5	10.5482	-3.08925	10.9912	16.3238	9152.64	0.175064	0	38	0.0177026	0.00161061	0	1.15405	-0.242561	716.528	716.521	3.03341	0.00440072	727.07	727.07	-0.0558441
10019.5	10.4258	-3.25921	10.9234	17.3598	10954.2	0.174821	0	38	0.0182004	0.00166619	0	1.17717	-0.3182	706.504	706.493	3.92365	-0.0531016	716.919	716.919	0.664439
10019.5	10.2873	-2.95084	10.7022	16.0051	12755.8	0.174838	0	38	0.0185236	0.00173083	0	1.0532	-0.32286	608.495	608.486	3.42884	-0.044261	618.773	618.773	0.478003