Folder: filtrar_datos_erdem (part 2)

File: f.mpt
EC-Lab ASCII FILE
Nb header lines : 50

Open Circuit Voltage

Run on channel : 3 (SN 4895)
User :
Electrode connection : standard
Ewe ctrl range : min = -10.00 V, max = 10.00 V
Ewe,I filtering : 50 kHz
Safety Limits :
	Do not start on E overload
Channel : Grounded
Acquisition started on : 06/04/2018 12:45:52
Technique started on : 06/04/2018 16:48:28
Saved on :
	File : GF201805_21_07_OCV.mpr
	Directory : C:\Users\L004\Documents\EC-Lab\Data\2018\06 June\04June_Erdem_NO3R\
	Host : 192.109.209.127
Device : VMP-300 (SN 0241)
Address : 192.109.209.128
EC-Lab for windows v11.12 (software)
Internet server v11.12 (firmware)
Command interpretor v11.12 (firmware)
Electrode material : 201805_21
Initial state : 500rpm stirring - N2 blanket
Electrolyte : 30mM NaClO4 100ppm NaNO3
Comments : Vacuum in 90mL
Comments : 1 g/L GO 70% 130ºC 8h
Current amplifier : B-2A30V
Cable : special
Reference electrode : Ag/AgCl Ref #7 (0.208 V)
Electrode surface area : 2.000 cm²
Characteristic mass : 1.000 g
Equivalent Weight : 0.000 g/eq.
Density : 0.000 g/cm3
Record Ece
Text export
Cycle Definition : Charge/Discharge alternance
tR (h:m:s)          0:05:0.0000
dER/dt (mV/h)       0.0
dER (mV)            0.00
dtR (s)             0.5000
E range min (V)     -10.000
E range max (V)     10.000

Number of loops : 1
Loop 0 from point number 0 to 600

mode	error	time/s	Ewe/V	Ece/V	Rcmp/Ohm	Ewe-Ece/V
3	0	14556.3	-1.2195	1.45471	0.0000000E+000	-2.67421
3	0	14558.3	-1.03124	1.38544	0.0000000E+000	-2.41668
3	0	14560.3	-0.944225	1.36018	0.0000000E+000	-2.30441
3	0	14562.3	-0.887751	1.3442	0.0000000E+000	-2.23195
3	0	14564.3	-0.839872	1.33249	0.0000000E+000	-2.17236
3	0	14566.3	-0.798093	1.32335	0.0000000E+000	-2.12144
3	0	14568.3	-0.761349	1.31538	0.0000000E+000	-2.07672
3	0	14570.3	-0.729434	1.30823	0.0000000E+000	-2.03766
3	0	14572.3	-0.701712	1.30177	0.0000000E+000	-2.00348
3	0	14574.3	-0.677383	1.296	0.0000000E+000	-1.97338
3	0	14576.3	-0.656076	1.29036	0.0000000E+000	-1.94644
3	0	14578.3	-0.635459	1.28528	0.0000000E+000	-1.92074
3	0	14580.3	-0.616111	1.28057	0.0000000E+000	-1.89668
3	0	14582.3	-0.596603	1.27565	0.0000000E+000	-1.87226
3	0	14584.3	-0.576766	1.27163	0.0000000E+000	-1.8484
3	0	14586.3	-0.557074	1.26772	0.0000000E+000	-1.82479
3	0	14588.3	-0.537795	1.26428	0.0000000E+000	-1.80208
3	0	14590.3	-0.520265	1.26064	0.0000000E+000	-1.7809
3	0	14592.3	-0.503874	1.25741	0.0000000E+000	-1.76128
3	0	14594.3	-0.488743	1.25476	0.0000000E+000	-1.74351
3	0	14596.3	-0.474793	1.2515	0.0000000E+000	-1.72629
3	0	14598.3	-0.461698	1.24885	0.0000000E+000	-1.71055
3	0	14600.3	-0.449581	1.24645	0.0000000E+000	-1.69603
3	0	14602.3	-0.438576	1.24425	0.0000000E+000	-1.68283
3	0	14604.3	-0.428301	1.24208	0.0000000E+000	-1.67039
3	0	14606.3	-0.418842	1.23975	0.0000000E+000	-1.65859
3	0	14608.3	-0.409927	1.23806	0.0000000E+000	-1.64799
3	0	14610.3	-0.401825	1.23648	0.0000000E+000	-1.63831
3	0	14612.3	-0.39412	1.23483	0.0000000E+000	-1.62895
3	0	14614.3	-0.387084	1.23301	0.0000000E+000	-1.6201
3	0	14616.3	-0.380441	1.2316	0.0000000E+000	-1.61205
3	0	14618.3	-0.374016	1.23075	0.0000000E+000	-1.60476
3	0	14620.3	-0.367972	1.22941	0.0000000E+000	-1.59738
3	0	14622.3	-0.362754	1.22848	0.0000000E+000	-1.59123
3	0	14624.3	-0.35775	1.22724	0.0000000E+000	-1.58499
3	0	14626.3	-0.352762	1.22652	0.0000000E+000	-1.57928
3	0	14628.3	-0.347922	1.22545	0.0000000E+000	-1.57338
3	0	14630.3	-0.343716	1.22442	0.0000000E+000	-1.56814
3	0	14632.3	-0.339617	1.2237	0.0000000E+000	-1.56332
3	0	14634.3	-0.335763	1.22284	0.0000000E+000	-1.55861
3	0	14636.3	-0.331828	1.22243	0.0000000E+000	-1.55426
3	0	14638.3	-0.32844	1.2214	0.0000000E+000	-1.54984
3	0	14640.3	-0.324922	1.22054	0.0000000E+000	-1.54546
3	0	14642.3	-0.321511	1.21999	0.0000000E+000	-1.5415
3	0	14644.3	-0.318493	1.21941	0.0000000E+000	-1.5379
3	0	14646.3	-0.315257	1.21906	0.0000000E+000	-1.53432
3	0	14648.3	-0.312236	1.21889	0.0000000E+000	-1.53113
3	0	14650.3	-0.309665	1.218	0.0000000E+000	-1.52766
3	0	14652.3	-0.306769	1.21796	0.0000000E+000	-1.52473
3	0	14654.3	-0.30405	1.21748	0.0000000E+000	-1.52153
3	0	14656.3	-0.301731	1.21714	0.0000000E+000	-1.51887
3	0	14658.3	-0.299015	1.21686	0.0000000E+000	-1.51588
3	0	14660.3	-0.296952	1.21614	0.0000000E+000	-1.51309
3	0	14662.3	-0.294538	1.2159	0.0000000E+000	-1.51044
3	0	14664.3	-0.292311	1.21587	0.0000000E+000	-1.50818
3	0	14666.3	-0.290558	1.21535	0.0000000E+000	-1.50591
3	0	14668.3	-0.288315	1.21497	0.0000000E+000	-1.50329
3	0	14670.3	-0.286379	1.21494	0.0000000E+000	-1.50132
3	0	14672.3	-0.28435	1.21442	0.0000000E+000	-1.49877
3	0	14674.3	-0.282677	1.21391	0.0000000E+000	-1.49659
3	0	14676.3	-0.280767	1.21384	0.0000000E+000	-1.49461
3	0	14678.3	-0.278903	1.21367	0.0000000E+000	-1.49257
3	0	14680.3	-0.277455	1.21315	0.0000000E+000	-1.49061
3	0	14682.3	-0.275591	1.21319	0.0000000E+000	-1.48878
3	0	14684.3	-0.273834	1.21302	0.0000000E+000	-1.48685
3	0	14686.3	-0.272424	1.21257	0.0000000E+000	-1.48499
3	0	14688.3	-0.270946	1.21264	0.0000000E+000	-1.48358
3	0	14690.3	-0.269269	1.21264	0.0000000E+000	-1.48191
3	0	14692.3	-0.267902	1.21247	0.0000000E+000	-1.48037
3	0	14694.3	-0.266469	1.21229	0.0000000E+000	-1.47876
3	0	14696.3	-0.265186	1.21188	0.0000000E+000	-1.47707
3	0	14698.3	-0.263864	1.21178	0.0000000E+000	-1.47564
3	0	14700.3	-0.262378	1.21178	0.0000000E+000	-1.47416
3	0	14702.3	-0.261255	1.21157	0.0000000E+000	-1.47283
3	0	14704.3	-0.259803	1.21171	0.0000000E+000	-1.47151
3	0	14706.3	-0.258891	1.21123	0.0000000E+000	-1.47012
3	0	14708.3	-0.257515	1.21116	0.0000000E+000	-1.46868
3	0	14710.3	-0.256297	1.21106	0.0000000E+000	-1.46735
3	0	14712.3	-0.255235	1.21099	0.0000000E+000	-1.46622
3	0	14714.3	-0.254242	1.21106	0.0000000E+000	-1.4653
3	0	14716.3	-0.25339	1.21044	0.0000000E+000	-1.46383
3	0	14718.3	-0.251915	1.21078	0.0000000E+000	-1.4627
3	0	14720.3	-0.250976	1.21054	0.0000000E+000	-1.46152
3	0	14722.3	-0.249998	1.21037	0.0000000E+000	-1.46037
3	0	14724.3	-0.24897	1.21016	0.0000000E+000	-1.45913
3	0	14726.3	-0.247992	1.2104	0.0000000E+000	-1.4584
3	0	14728.3	-0.24706	1.21034	0.0000000E+000	-1.4574
3	0	14730.3	-0.245907	1.21034	0.0000000E+000	-1.45624
3	0	14732.3	-0.245051	1.21013	0.0000000E+000	-1.45518
3	0	14734.3	-0.244394	1.20982	0.0000000E+000	-1.45421
3	0	14736.3	-0.243584	1.20955	0.0000000E+000	-1.45313
3	0	14738.3	-0.24253	1.20982	0.0000000E+000	-1.45235
3	0	14740.3	-0.241762	1.20968	0.0000000E+000	-1.45144
3	0	14742.3	-0.24078	1.20979	0.0000000E+000	-1.45057
3	0	14744.3	-0.240093	1.20948	0.0000000E+000	-1.44957
3	0	14746.3	-0.239382	1.20951	0.0000000E+000	-1.44889
3	0	14748.3	-0.238255	1.20985	0.0000000E+000	-1.44811
3	0	14750.3	-0.237824	1.20965	0.0000000E+000	-1.44747
3	0	14752.3	-0.236945	1.20958	0.0000000E+000	-1.44652
3	0	14754.3	-0.236147	1.20948	0.0000000E+000	-1.44562
3	0	14756.3	-0.235646	1.2093	0.0000000E+000	-1.44495
3	0	14758.3	-0.235142	1.20917	0.0000000E+000	-1.44431
3	0	14760.3	-0.234183	1.2091	0.0000000E+000	-1.44328
3	0	14762.3	-0.233637	1.20903	0.0000000E+000	-1.44267
3	0	14764.3	-0.232865	1.20934	0.0000000E+000	-1.4422
3	0	14766.3	-0.232109	1.2092	0.0000000E+000	-1.44131
3	0	14768.3	-0.231566	1.20896	0.0000000E+000	-1.44053
3	0	14770.3	-0.230841	1.20906	0.0000000E+000	-1.4399
3	0	14772.3	-0.230451	1.20886	0.0000000E+000	-1.43931
3	0	14774.3	-0.229775	1.20886	0.0000000E+000	-1.43863
3	0	14776.3	-0.229068	1.20893	0.0000000E+000	-1.43799
3	0	14778.3	-0.22835	1.20896	0.0000000E+000	-1.43731
3	0	14780.3	-0.228186	1.20869	0.0000000E+000	-1.43687
3	0	14782.3	-0.227617	1.20858	0.0000000E+000	-1.4362
3	0	14784.3	-0.226929	1.20862	0.0000000E+000	-1.43555
3	0	14786.3	-0.226425	1.20848	0.0000000E+000	-1.4349
3	0	14788.3	-0.226234	1.20848	0.0000000E+000	-1.43471
3	0	14790.3	-0.225302	1.20865	0.0000000E+000	-1.43395
3	0	14792.3	-0.224863	1.20862	0.0000000E+000	-1.43348
3	0	14794.3	-0.224652	1.20858	0.0000000E+000	-1.43324
3	0	14796.3	-0.223793	1.20862	0.0000000E+000	-1.43241
3	0	14798.3	-0.223411	1.20827	0.0000000E+000	-1.43168
3	0	14800.3	-0.222819	1.20845	0.0000000E+000	-1.43126
3	0	14802.3	-0.222402	1.20872	0.0000000E+000	-1.43112
3	0	14804.3	-0.222062	1.20834	0.0000000E+000	-1.4304
3	0	14806.3	-0.221302	1.20855	0.0000000E+000	-1.42985
3	0	14808.3	-0.221039	1.20834	0.0000000E+000	-1.42938
3	0	14810.3	-0.220534	1.20838	0.0000000E+000	-1.42891
3	0	14812.3	-0.219973	1.20869	0.0000000E+000	-1.42866
3	0	14814.3	-0.219347	1.20872	0.0000000E+000	-1.42807
3	0	14816.3	-0.219446	1.20814	0.0000000E+000	-1.42758
3	0	14818.3	-0.218712	1.20838	0.0000000E+000	-1.42709
3	0	14820.3	-0.218285	1.20841	0.0000000E+000	-1.4267
3	0	14822.3	-0.218315	1.20793	0.0000000E+000	-1.42625
3	0	14824.3	-0.217635	1.20796	0.0000000E+000	-1.4256
3	0	14826.3	-0.217089	1.20834	0.0000000E+000	-1.42543
3	0	14828.3	-0.216909	1.20793	0.0000000E+000	-1.42484
3	0	14830.3	-0.216504	1.2079	0.0000000E+000	-1.4244
3	0	14832.3	-0.216084	1.208	0.0000000E+000	-1.42408
3	0	14834.3	-0.215687	1.20807	0.0000000E+000	-1.42375
3	0	14836.3	-0.215404	1.2079	0.0000000E+000	-1.4233
3	0	14838.3	-0.214942	1.2081	0.0000000E+000	-1.42304
3	0	14840.3	-0.214656	1.208	0.0000000E+000	-1.42265
3	0	14842.3	-0.214209	1.20779	0.0000000E+000	-1.422
3	0	14844.3	-0.213643	1.20803	0.0000000E+000	-1.42168
3	0	14846.3	-0.213678	1.20796	0.0000000E+000	-1.42164
3	0	14848.3	-0.212899	1.2081	0.0000000E+000	-1.421
3	0	14850.3	-0.212635	1.20814	0.0000000E+000	-1.42077
3	0	14852.3	-0.212276	1.2082	0.0000000E+000	-1.42048
3	0	14854.3	-0.211848	1.2081	0.0000000E+000	-1.41995
3	0	14855.8	-0.211959	1.20814	0.0000000E+000	-1.4201

File: h.mpt
EC-Lab ASCII FILE
Nb header lines : 65

Cyclic Voltammetry

Run on channel : 3 (SN 4895)
User :
Electrode connection : standard
Ewe ctrl range : min = -10.00 V, max = 10.00 V
Ewe,I filtering : 50 kHz
Safety Limits :
	Do not start on E overload
Channel : Grounded
Acquisition started on : 06/04/2018 12:45:52
Technique started on : 06/04/2018 16:53:29
Saved on :
	File : GF201805_21_09_CV.mpr
	Directory : C:\Users\L004\Documents\EC-Lab\Data\2018\06 June\04June_Erdem_NO3R\
	Host : 192.109.209.127
Device : VMP-300 (SN 0241)
Address : 192.109.209.128
EC-Lab for windows v11.12 (software)
Internet server v11.12 (firmware)
Command interpretor v11.12 (firmware)
Electrode material : 201805_21
Initial state : 500rpm stirring - N2 blanket
Electrolyte : 30mM NaClO4 100ppm NaNO3
Comments : Vacuum in 90mL
Comments : 1 g/L GO 70% 130ºC 8h
Current amplifier : B-2A30V
Cable : special
Reference electrode : Ag/AgCl Ref #7 (0.208 V)
Electrode surface area : 2.000 cm²
Characteristic mass : 1.000 g
Equivalent Weight : 0.000 g/eq.
Density : 0.000 g/cm3
Record Ece
Text export
Cycle Definition : Charge/Discharge alternance
Ei (V)              0.000
vs.                 Eoc
dE/dt               50.000
dE/dt unit          mV/s
E1 (V)              -1.800
vs.                 Ref
Step percent        50
N                   10
E range min (V)     -10.000
E range max (V)     10.000
I Range             100 mA
I Range min         10 nA
I Range max         10 mA
I Range init        100 nA
Bandwidth           5
E2 (V)              1.200
vs.                 Ref
nc cycles           2
Reverse Scan        1
Ef (V)              0.000
vs.                 Eoc

Number of loops : 1
Loop 0 from point number 0 to 5031

mode	ox/red	error	control changes	counter inc.	time/s	control/V	Ewe/V	<I>/mA	cycle number	(Q-Qo)/C	<Ece>/V	Rcmp/Ohm	P/W	Ewe-Ece/V
2	0	0	0	0	14857.3	-0.211798	-0.211507	0.000325738	1	0.0000000E+000	1.21164	0.0000000E+000	-6.88956e-08	-1.42315
2	0	0	1	0	14860.7	-0.380309	-0.380156	-0.767213	1	-0.00191403	1.86747	0.0000000E+000	0.000291661	-2.24763
2	0	0	0	0	14864.1	-0.550321	-0.550148	-1.11264	1	-0.00518786	2.04584	0.0000000E+000	0.000612115	-2.59599
2	0	0	1	0	14867.5	-0.720332	-0.720238	-1.55908	1	-0.00961508	2.25831	0.0000000E+000	0.00112291	-2.97854
2	0	0	0	0	14870.9	-0.89034	-0.890208	-2.06433	1	-0.0159138	2.48685	0.0000000E+000	0.00183768	-3.37706
2	0	0	1	0	14874.3	-1.06035	-1.06028	-2.342	1	-0.0234121	2.60573	0.0000000E+000	0.00248318	-3.66601
2	0	0	0	0	14877.7	-1.23036	-1.23023	-3.23946	1	-0.0326081	2.99205	0.0000000E+000	0.00398529	-4.22228
2	0	0	0	0	14881.1	-1.40038	-1.40019	-6.6485	1	-0.0483145	4.41722	0.0000000E+000	0.00930914	-5.81741
2	0	0	1	0	14884.5	-1.57039	-1.57013	-13.6399	1	-0.081945	7.21673	0.0000000E+000	0.0214164	-8.78686
2	0	0	0	0	14887.9	-1.7404	-1.74011	-23.3956	1	-0.144263	10.9443	0.0000000E+000	0.040711	-12.6844
2	1	0	0	0	14891.2	-1.69473	-1.69465	-19.7973	1	-0.223694	9.429	0.0000000E+000	0.0335495	-11.1236
2	1	0	0	0	14894.6	-1.52471	-1.52463	-10.1477	1	-0.273631	5.67386	0.0000000E+000	0.0154714	-7.19848
2	1	0	1	0	14898	-1.3547	-1.3546	-4.20596	1	-0.296895	3.31401	0.0000000E+000	0.00569739	-4.6686
2	1	0	0	0	14901.4	-1.18469	-1.18456	-1.5588	1	-0.305983	2.21658	0.0000000E+000	0.00184649	-3.40113
2	1	0	1	0	14904.8	-1.01468	-1.01449	-0.568997	1	-0.309316	1.76904	0.0000000E+000	0.000577239	-2.78352
2	1	0	0	0	14908.2	-0.844673	-0.844495	-0.100046	1	-0.310308	1.4999	0.0000000E+000	8.44886e-05	-2.34439
2	1	0	1	0	14911.6	-0.674662	-0.674474	0.179896	1	-0.310221	1.19625	0.0000000E+000	-0.000121335	-1.87073
2	1	0	0	0	14915	-0.504654	-0.504502	0.536572	1	-0.308937	0.581269	0.0000000E+000	-0.000270701	-1.08577
2	1	0	1	0	14918.4	-0.334643	-0.334416	0.854374	1	-0.306554	0.188495	0.0000000E+000	-0.000285716	-0.522911
2	1	0	1	0	14921.8	-0.164625	-0.164441	1.12384	1	-0.303147	-0.108845	0.0000000E+000	-0.000184805	-0.0555956
2	1	0	0	0	14925.2	0.00538609	0.00564863	1.33077	1	-0.298959	-0.288964	0.0000000E+000	7.51702e-06	0.294613
2	1	0	1	0	14928.6	0.175397	0.175727	1.69959	1	-0.293886	-0.47909	0.0000000E+000	0.000298663	0.654817
2	1	0	0	0	14932	0.345405	0.345732	2.32643	1	-0.287106	-0.843993	0.0000000E+000	0.000804323	1.18973
2	1	0	1	0	14935.4	0.515416	0.515773	3.29815	1	-0.277659	-1.49691	0.0000000E+000	0.0017011	2.01269
2	1	0	0	0	14938.8	0.685427	0.685722	4.94264	1	-0.263897	-2.78008	0.0000000E+000	0.00338928	3.4658
2	1	0	1	0	14942.2	0.855435	0.855589	8.39321	1	-0.242083	-5.85942	0.0000000E+000	0.00718114	6.71501
2	1	0	0	0	14945.6	1.02545	1.02541	15.9325	1	-0.201991	-13.8693	0.0000000E+000	0.0163373	14.8947
2	1	0	1	0	14949	1.19546	1.1949	26.9617	1	-0.129562	-30.1995	0.0000000E+000	0.0322164	31.3944
2	0	0	0	1	14952.3	1.03812	1.03887	15.8875	1	-0.0574447	-21.9055	0.0000000E+000	0.0165051	22.9443
2	0	0	1	1	14955.7	0.868109	0.868812	5.71778	1	-0.0215401	-8.93942	0.0000000E+000	0.00496768	9.80823
2	0	0	0	1	14959.1	0.698098	0.698439	0.695309	1	-0.0127681	-0.51147	0.0000000E+000	0.000485631	1.20991
2	0	0	0	1	14962.5	0.52808	0.528231	0.0191456	1	-0.0118243	0.54708	0.0000000E+000	1.01133e-05	-0.0188481
2	0	0	1	1	14965.9	0.358069	0.358241	-0.271253	1	-0.0123042	1.04665	0.0000000E+000	-9.7174e-05	-0.68841
2	0	0	0	1	14969.3	0.18806	0.188151	-0.466178	1	-0.0135714	1.45887	0.0000000E+000	-8.77119e-05	-1.27072
2	0	0	1	1	14972.7	0.0180503	0.0181527	-0.639349	1	-0.0154556	1.87287	0.0000000E+000	-1.16059e-05	-1.85472
2	0	0	0	1	14976.1	-0.151961	-0.151882	-0.82962	1	-0.0179433	2.37067	0.0000000E+000	0.000126004	-2.52255
2	0	0	0	1	14979.4	-0.317305	-0.31718	-1.14282	2	-0.0211378	2.84042	0.0000000E+000	0.000362481	-3.1576
2	0	0	0	1	14982.8	-0.48732	-0.487273	-2.03318	2	-0.0264505	3.93562	0.0000000E+000	0.000990715	-4.42289
2	0	0	1	1	14986.2	-0.657331	-0.657227	-2.96982	2	-0.0348226	4.83809	0.0000000E+000	0.00195185	-5.49532
2	0	0	0	1	14989.6	-0.827339	-0.827318	-4.37955	2	-0.0473834	6.01493	0.0000000E+000	0.00362328	-6.84225
2	0	0	1	1	14993	-0.99735	-0.997316	-5.06203	2	-0.0636991	6.26328	0.0000000E+000	0.00504844	-7.2606
2	0	0	0	1	14996.4	-1.16736	-1.16736	-5.34289	2	-0.081504	6.0738	0.0000000E+000	0.00623705	-7.24115
2	0	0	1	1	14999.8	-1.33737	-1.33731	-6.0737	2	-0.100613	6.21983	0.0000000E+000	0.00812242	-7.55714
2	0	0	0	1	15003.2	-1.50738	-1.5072	-9.26526	2	-0.125563	8.05631	0.0000000E+000	0.0139646	-9.56351
2	0	0	1	1	15006.6	-1.67739	-1.67714	-17.1549	2	-0.169185	12.3657	0.0000000E+000	0.0287713	-14.0428
2	1	0	1	1	15009.9	-1.75806	-1.75811	-22.2062	2	-0.240541	13.9848	0.0000000E+000	0.039041	-15.7429
2	1	0	0	1	15013.3	-1.58805	-1.588	-11.973	2	-0.297999	7.89582	0.0000000E+000	0.0190132	-9.48382
2	1	0	1	1	15016.7	-1.41804	-1.4179	-4.91297	2	-0.325507	4.09133	0.0000000E+000	0.00696611	-5.50924
2	1	0	0	1	15020.1	-1.24803	-1.24786	-1.81792	2	-0.335997	2.4248	0.0000000E+000	0.0022685	-3.67265
2	1	0	1	1	15023.5	-1.07802	-1.07789	-0.83948	2	-0.340205	1.87418	0.0000000E+000	0.000904864	-2.95206
2	1	0	0	1	15026.9	-0.908014	-0.907852	-0.418226	2	-0.3423	1.61514	0.0000000E+000	0.000379687	-2.52299
2	1	0	1	1	15030.3	-0.738003	-0.737863	0.0214827	2	-0.342966	1.22548	0.0000000E+000	-1.58513e-05	-1.96334
2	1	0	1	1	15033.7	-0.567985	-0.567807	0.513523	2	-0.342063	0.600512	0.0000000E+000	-0.000291582	-1.16832
2	1	0	0	1	15037.1	-0.397974	-0.397814	0.877176	2	-0.339683	0.00910348	0.0000000E+000	-0.000348953	-0.406918
[...]
2	0	0	0	0	15074.5	0.93144	0.932339	10.3377	2	-0.0684053	-18.4828	0.0000000E+000	0.00963827	19.4151
2	0	0	1	0	15077.9	0.761429	0.762005	1.9766	2	-0.0488526	-3.95847	0.0000000E+000	0.00150618	4.72047
2	0	0	0	0	15081.3	0.591421	0.591575	0.113309	2	-0.0465995	0.328403	0.0000000E+000	6.70309e-05	0.263172
2	0	0	1	0	15084.7	0.42141	0.421499	-0.195342	2	-0.0468206	0.91621	0.0000000E+000	-8.23363e-05	-0.494711
2	0	0	0	0	15088.1	0.251399	0.251478	-0.396983	2	-0.0478483	1.3051	0.0000000E+000	-9.98325e-05	-1.05363
2	0	0	1	0	15091.5	0.0813911	0.0814594	-0.548482	2	-0.0494506	1.64218	0.0000000E+000	-4.4679e-05	-1.56072
2	0	0	0	0	15094.9	-0.0886201	-0.088552	-0.720352	2	-0.0516176	2.06995	0.0000000E+000	6.37886e-05	-2.1585
2	0	0	1	0	15098.2	-0.253971	-0.253899	-0.956117	3	-0.0543791	2.71303	0.0000000E+000	0.000242757	-2.96693
2	0	0	0	0	15101.6	-0.423979	-0.423936	-1.70276	3	-0.0586319	4.06525	0.0000000E+000	0.000721861	-4.48919
2	0	0	1	0	15105	-0.59399	-0.593924	-2.67371	3	-0.0661402	5.43172	0.0000000E+000	0.00158798	-6.02564
2	0	0	0	0	15108.4	-0.764001	-0.763893	-3.9047	3	-0.0771598	6.82056	0.0000000E+000	0.00298277	-7.58446
2	0	0	1	0	15111.8	-0.934009	-0.934064	-4.97974	3	-0.0924504	7.63068	0.0000000E+000	0.00465139	-8.56474
2	0	0	0	0	15115.2	-1.10402	-1.10406	-5.4464	3	-0.110261	7.63043	0.0000000E+000	0.00601313	-8.73448
2	0	0	1	0	15118.6	-1.27403	-1.27398	-5.78933	3	-0.129287	7.49259	0.0000000E+000	0.00737549	-8.76657
2	0	0	1	0	15122	-1.44405	-1.44391	-7.33041	3	-0.151019	8.39411	0.0000000E+000	0.0105845	-9.83802
2	0	0	0	0	15125.4	-1.61406	-1.61375	-12.755	3	-0.18376	11.9708	0.0000000E+000	0.0205834	-13.5845
2	0	0	1	0	15128.8	-1.78407	-1.78376	-22.7937	3	-0.243251	17.5613	0.0000000E+000	0.0406584	-19.345
2	1	0	0	0	15132.1	-1.65139	-1.65144	-14.3827	3	-0.307019	10.6926	0.0000000E+000	0.0237522	-12.344
2	1	0	1	0	15135.5	-1.48138	-1.48128	-6.21747	3	-0.340901	5.35719	0.0000000E+000	0.00920982	-6.83847
2	1	0	0	0	15138.9	-1.31137	-1.31123	-2.30661	3	-0.354186	2.89575	0.0000000E+000	0.0030245	-4.20698
2	1	0	1	0	15142.3	-1.14136	-1.14117	-1.14434	3	-0.359667	2.14872	0.0000000E+000	0.00130589	-3.28989
2	1	0	1	0	15145.7	-0.971345	-0.971151	-0.674245	3	-0.362681	1.83502	0.0000000E+000	0.000654794	-2.80617
2	1	0	0	0	15149.1	-0.801334	-0.801182	-0.254348	3	-0.364268	1.52184	0.0000000E+000	0.000203779	-2.32302
2	1	0	1	0	15152.5	-0.631323	-0.631177	0.253854	3	-0.364314	0.918549	0.0000000E+000	-0.000160227	-1.54973
2	1	0	0	0	15155.9	-0.461315	-0.461173	0.71036	3	-0.362597	0.188482	0.0000000E+000	-0.000327599	-0.649655
2	1	0	1	0	15159.3	-0.291303	-0.29109	1.0762	3	-0.359535	-0.288498	0.0000000E+000	-0.000313272	-0.00259167
2	1	0	0	0	15162.7	-0.121292	-0.121096	1.2493	3	-0.35549	-0.420062	0.0000000E+000	-0.000151285	0.298966
2	1	0	1	0	15166.1	0.0487156	0.0489992	1.2636	3	-0.351204	-0.453367	0.0000000E+000	6.19154e-05	0.502366
2	1	0	0	0	15169.5	0.218727	0.219004	1.37151	3	-0.346787	-0.561835	0.0000000E+000	0.000300365	0.780838
2	1	0	1	0	15172.9	0.388738	0.38906	1.75309	3	-0.341566	-0.906352	0.0000000E+000	0.000682058	1.29541
2	1	0	1	0	15176.3	0.558756	0.559049	2.56666	3	-0.334363	-1.6745	0.0000000E+000	0.00143489	2.23355
2	1	0	0	0	15179.7	0.728767	0.728971	4.1483	3	-0.323313	-3.39039	0.0000000E+000	0.00302399	4.11936
2	1	0	1	0	15183.1	0.898775	0.898717	9.68809	3	-0.30159	-10.1739	0.0000000E+000	0.00870686	11.0726
2	1	0	0	0	15186.5	1.06879	1.06827	19.8856	3	-0.252039	-25.4671	0.0000000E+000	0.0212431	26.5354
2	0	0	1	1	15189.8	1.16479	1.09348	21.4468	3	-0.177143	-33.8171	0.0000000E+000	0.0234516	34.9105
2	0	1	0	1	15192	1.05629	1.06108	19.1694	3	-0.133305	-33.885	0.0000000E+000	0.0203402	34.9461